Date,Time,Acel_X,Acel_Y,Acel_Z,Gyro_X,Gyro_Y,Gyro_Z,Temp
2023-07-27,12:00:16,624,-3264,17740,-6639,2144,864,42.22
2023-07-27,12:00:16,64,-5664,19296,1666,8530,6622,42.46
2023-07-27,12:00:17,-9004,2140,10868,32767,8610,4418,42.41
2023-07-27,12:00:17,-4852,-13404,6608,1247,-221,-5576,42.32
2023-07-27,12:00:18,-1024,-2784,17924,14164,-2245,300,42.46
2023-07-27,12:00:19,-3100,-9448,11944,19283,14442,6801,42.51
2023-07-27,12:00:19,-13812,-3788,7208,-32768,543,-32768,42.51
2023-07-27,12:00:20,-356,-9824,17204,-916,-8050,-17255,42.22
2023-07-27,12:00:20,-3436,-8864,2164,-2588,-3025,2223,42.22
2023-07-27,12:00:21,-7260,9100,18272,-32768,-16787,9914,42.51
2023-07-27,12:00:21,1392,-7144,17324,4515,-3279,-2196,41.99
2023-07-27,12:00:22,1856,-2604,23240,-1331,13278,10186,42.32
2023-07-27,12:00:22,-14156,-7648,2496,1083,17071,11949,42.41
2023-07-27,12:00:23,-15508,-4716,-96,-79,252,313,42.60
2023-07-27,12:00:24,-11572,332,15136,14053,-28697,4310,42.41
2023-07-27,12:00:24,8888,-10592,13600,-32768,-32726,32767,42.60
2023-07-27,12:00:25,7408,-14932,18004,32767,23221,-20075,42.46
2023-07-27,12:00:25,-2408,-14144,16772,32767,13402,-3672,42.41
2023-07-27,12:00:26,-8728,-13720,192,-1466,5178,3848,42.46
2023-07-27,12:00:26,-5432,-10696,-2180,32767,1254,-1569,42.32
2023-07-27,12:00:27,-5104,-12560,9960,-32768,-2648,486,42.32
2023-07-27,12:00:27,-1480,-15152,7912,-1520,1443,-7160,42.60
2023-07-27,12:00:28,-3924,-11048,13552,3238,15805,1942,42.51
2023-07-27,12:00:28,-2072,-2552,17124,2788,-13036,-2126,42.65
2023-07-27,12:00:29,-8540,-5104,11460,-15601,19437,-1444,42.60
2023-07-27,12:00:30,-13688,-5084,5464,2741,-475,-2243,42.32
2023-07-27,12:00:30,-15860,-224,-2596,-32768,-10665,-26290,42.60
2023-07-27,12:00:31,-1796,-15384,16940,-32768,-32768,29894,42.65
2023-07-27,12:00:31,10752,-18280,-11384,17692,8836,-13077,42.46
2023-07-27,12:00:32,-940,-14632,19944,-32768,-3976,13581,42.60
2023-07-27,12:00:32,11828,-11476,22496,-32768,-32768,32767,42.74
2023-07-27,12:00:33,-1816,-19036,8176,-32768,-20286,-12747,42.65
2023-07-27,12:00:33,3828,-16644,19420,-32768,-25906,10577,42.93
2023-07-27,12:00:34,-7664,3864,16408,19286,-5205,-16700,42.65
2023-07-27,12:00:34,-4152,964,20704,32767,6941,-14996,42.60
2023-07-27,12:00:35,-3764,568,18324,-2895,-348,3992,42.65
2023-07-27,12:00:36,1936,-2948,17160,138,216,-4,42.51
2023-07-27,12:00:36,1308,-7308,20996,14893,-7264,-7591,42.60
2023-07-27,12:00:37,-7728,11288,6096,-5156,1266,-4960,42.46
2023-07-27,12:00:37,-6784,-5096,17272,-30061,-9357,8919,42.51
2023-07-27,12:00:38,-5308,-10008,11180,2011,-804,490,42.46
2023-07-27,12:00:38,-12240,776,9668,10441,17269,-2376,42.41
2023-07-27,12:00:39,-13980,3100,7064,4935,277,-6482,42.84
2023-07-27,12:00:39,-6532,2968,16348,-519,-13115,12112,42.60
2023-07-27,12:00:40,6776,2456,17132,2297,-1270,4705,42.60
2023-07-27,12:00:40,1052,1392,16992,4814,19577,-4921,42.65
2023-07-27,12:00:41,-7076,1976,16572,-5004,-2180,-2398,42.93
2023-07-27,12:00:42,-2124,420,17784,-5217,-5050,3167,43.12
2023-07-27,12:00:42,3412,708,16572,-1208,1432,-261,42.65
2023-07-27,12:00:43,-6028,60,17396,-5448,14999,-9583,42.79
2023-07-27,12:00:43,-2232,-6684,15480,836,-10156,-3105,42.65
2023-07-27,12:00:44,-5808,7984,16052,10360,3239,-719,42.74
2023-07-27,12:00:44,-4208,6208,15184,-17081,-6614,8653,42.79
2023-07-27,12:00:45,-2768,-9020,14272,-19473,2742,-2638,42.79
2023-07-27,12:00:45,-6760,-1148,16676,15004,-617,-618,42.65
2023-07-27,12:00:46,-5540,3288,17312,-14527,-4056,5221,42.98
2023-07-27,12:00:46,-2272,-8452,14004,-12585,-3502,-3294,42.93
2023-07-27,12:00:47,-5972,-4184,18176,16974,10816,509,42.79
2023-07-27,12:00:48,-4868,4184,16888,2046,-7291,3984,42.93
2023-07-27,12:00:48,2384,-6512,16176,-8838,-9217,10743,42.65
2023-07-27,12:00:49,-1844,-3968,18048,12461,28286,-563,42.93
2023-07-27,12:00:49,-6000,-7144,13972,9480,-12725,-14042,42.84
2023-07-27,12:00:50,-5900,1128,17448,-7179,25259,-14463,42.98
2023-07-27,12:00:50,-1912,-6488,15216,20503,-11833,-10954,42.93
2023-07-27,12:00:51,-6368,6232,12596,-6037,-4421,-6833,42.79
2023-07-27,12:00:51,-2672,-4072,15220,-337,-6507,-1027,42.98
2023-07-27,12:00:52,-1688,-1244,16700,11415,5390,1444,42.79
2023-07-27,12:00:52,-10760,7196,15104,1604,6605,-5605,42.84
2023-07-27,12:00:53,-12484,328,9420,-1025,-5828,-1672,43.02
2023-07-27,12:00:54,-4548,3700,17440,-6032,-6800,9473,42.93
2023-07-27,12:00:54,372,616,15100,-4082,5400,8496,43.02
2023-07-27,12:00:55,-1344,2484,19124,3810,763,-3710,43.02
2023-07-27,12:00:55,-5832,-144,16832,-1457,6793,-5831,43.26
2023-07-27,12:00:56,-11928,-2796,11584,1530,4132,1962,42.93
2023-07-27,12:00:56,-5688,368,16020,-1202,-5908,916,43.02
2023-07-27,12:00:57,1196,-224,17740,580,4116,-1865,42.65
2023-07-27,12:00:57,-2480,612,18116,-604,6194,984,43.12
2023-07-27,12:00:58,1344,644,17752,887,-2466,-2284,42.84
2023-07-27,12:00:58,64,-1212,17692,-1356,322,-539,43.12
2023-07-27,12:00:59,-216,484,17024,508,141,151,42.98
2023-07-27,12:01:00,-576,728,17164,-66,352,73,42.93
2023-07-27,12:01:00,-560,688,17124,-37,330,28,43.17
2023-07-27,12:01:01,-620,716,17380,3,277,48,42.84
2023-07-27,12:01:01,-564,736,17400,-38,288,57,43.12
2023-07-27,12:01:02,-604,764,17288,5,269,40,42.98
2023-07-27,12:01:02,-632,748,17364,-11,276,19,43.02
2023-07-27,12:01:03,-576,712,17288,0,282,38,42.93
2023-07-27,12:01:03,-588,720,17320,15,267,39,43.12
2023-07-27,12:01:04,-612,740,17288,32,272,37,42.98
2023-07-27,12:01:04,-608,788,17280,-20,289,49,42.93
2023-07-27,12:01:05,-652,772,17360,25,306,24,42.93
2023-07-27,12:01:06,-524,736,17392,2,336,46,43.17
2023-07-27,12:01:06,-632,796,17288,7,312,28,43.12
2023-07-27,12:01:07,-632,724,17316,-4,248,26,43.12
2023-07-27,12:01:07,-592,792,17172,3,279,42,42.98
2023-07-27,12:01:08,-616,760,17284,-12,255,35,43.02
2023-07-27,12:01:08,-660,692,17376,-6,277,44,43.02
2023-07-27,12:01:09,-624,780,17344,-13,328,39,43.02
2023-07-27,12:01:09,-544,688,17304,-1,256,53,42.93
2023-07-27,12:01:10,-612,736,17248,-32,240,14,42.98
2023-07-27,12:01:10,-612,744,17296,-21,293,33,43.17
2023-07-27,12:01:11,-616,712,17048,-122,366,70,42.98
2023-07-27,12:01:12,-488,636,17288,523,186,-83,42.98
2023-07-27,12:01:12,-1456,-1668,18224,-2288,-2864,-374,43.02
2023-07-27,12:01:13,-5792,-3632,14400,1530,7898,-1325,42.98
2023-07-27,12:01:13,-10008,532,15064,6902,2808,-587,42.98
2023-07-27,12:01:14,-4128,-1260,17736,-6451,-11657,5271,43.12
2023-07-27,12:01:14,508,-4944,16484,-4365,-2148,3827,42.93
2023-07-27,12:01:15,-3416,-1868,17212,16409,6869,-4589,42.98
2023-07-27,12:01:15,-6592,3096,14200,-3861,1822,-2899,43.12
2023-07-27,12:01:16,-952,-920,18492,-728,-9147,5813,43.17
2023-07-27,12:01:16,-1504,2332,15120,-3007,3152,613,42.98
2023-07-27,12:01:17,5920,-4084,14396,-6122,-4904,983,43.17
2023-07-27,12:01:18,-2764,-2040,19036,5898,28453,-7333,43.26
2023-07-27,12:01:18,-7892,-6376,7428,-1148,-14882,-4098,43.12
2023-07-27,12:01:19,-3924,5708,12024,-19625,-7711,1965,43.12
2023-07-27,12:01:19,-68,1200,16980,-130,387,89,42.84
2023-07-27,12:01:20,-220,1192,17176,36,311,39,42.93
2023-07-27,12:01:20,-148,1204,17248,326,282,59,42.93
2023-07-27,12:01:21,-260,1372,17392,-14,265,54,42.79
2023-07-27,12:01:21,-304,1308,17216,12,282,20,43.31
2023-07-27,12:01:22,-328,1336,17332,-25,298,0,42.79
2023-07-27,12:01:23,-152,1336,17304,99,297,34,42.98
2023-07-27,12:01:23,-220,1340,17236,69,224,49,42.98
2023-07-27,12:01:24,-296,1328,17272,5,290,46,43.31
2023-07-27,12:01:24,-284,1248,17332,20,263,25,42.98
2023-07-27,12:01:25,-292,1332,17288,-15,292,6,43.26
2023-07-27,12:01:25,-284,1312,17312,-11,295,6,43.35
2023-07-27,12:01:26,-308,1376,17332,-14,301,74,43.31
2023-07-27,12:01:26,-320,1312,17252,-31,319,54,43.45
2023-07-27,12:01:27,-292,1384,17268,-5,278,28,43.02
2023-07-27,12:01:27,-252,1360,17300,5,258,51,43.26
2023-07-27,12:01:28,-288,1356,17340,62,312,64,43.17
2023-07-27,12:01:29,-256,1352,17364,7,343,43,43.26
2023-07-27,12:01:29,-308,1340,17268,50,241,71,43.12
2023-07-27,12:01:30,-280,1340,17316,89,276,54,42.93
2023-07-27,12:01:30,-248,1352,17368,-51,258,51,43.02
2023-07-27,12:01:31,-280,1404,17384,-15,251,22,42.98
2023-07-27,12:01:31,-320,1404,17284,-27,257,22,43.12
2023-07-27,12:01:32,-200,1316,17172,-170,271,59,42.98
2023-07-27,12:01:32,-424,1424,17324,-558,-287,157,43.31
2023-07-27,12:01:33,-132,2076,17148,-863,-110,348,42.98
2023-07-27,12:01:33,-132,2496,17120,-6,279,44,43.35
2023-07-27,12:01:34,-128,2432,17248,15,246,27,42.98
2023-07-27,12:01:35,-164,2420,17200,-31,292,51,43.17
2023-07-27,12:01:35,-128,2480,17096,-17,212,65,43.12
2023-07-27,12:01:36,-156,2460,17136,-16,309,43,43.17
2023-07-27,12:01:36,-96,2420,17200,-4,260,62,43.02
2023-07-27,12:01:37,-168,2476,17224,33,299,50,42.98
2023-07-27,12:01:37,-124,2496,17124,15,283,25,42.98
2023-07-27,12:01:38,-220,2484,17176,-9,250,38,43.02
2023-07-27,12:01:38,-120,2400,17188,-8,247,63,43.02
2023-07-27,12:01:39,-208,2460,17192,1,258,46,42.98
2023-07-27,12:01:39,-156,2468,17196,-9,233,18,43.26
2023-07-27,12:01:40,-152,2416,17180,7,287,39,43.02
2023-07-27,12:01:41,-180,2448,17148,-5,283,52,43.26
2023-07-27,12:01:41,-164,2424,17140,11,283,32,43.02
2023-07-27,12:01:42,-212,2484,17196,6,280,35,43.26
2023-07-27,12:01:42,-124,2424,17148,7,271,14,43.12
2023-07-27,12:01:43,-136,2408,17104,-22,313,20,43.26
2023-07-27,12:01:43,-180,2448,17144,-20,237,46,42.98
2023-07-27,12:01:44,-144,2420,17256,-11,284,38,43.31
2023-07-27,12:01:44,-132,2416,17212,22,290,44,43.17
2023-07-27,12:01:45,-108,2484,17156,-15,252,85,42.84
2023-07-27,12:01:45,-136,2464,17192,-11,242,21,43.26
2023-07-27,12:01:46,-156,2408,17220,7,261,21,43.02
2023-07-27,12:01:47,-200,2472,17200,-6,266,58,43.31
2023-07-27,12:01:47,56,2480,17212,634,345,5,43.17
2023-07-27,12:01:48,-696,-904,17784,3008,-1953,906,42.98
2023-07-27,12:01:48,-4084,1112,16292,1204,11181,830,43.17
2023-07-27,12:01:49,4528,-1352,16984,-4952,-10162,1388,42.98
2023-07-27,12:01:49,4704,-4580,15352,-1689,-315,1229,43.12
2023-07-27,12:01:50,-844,136,19772,4975,7248,-5311,43.26
2023-07-27,12:01:50,-7448,-2232,15044,-5230,144,-1780,43.02
2023-07-27,12:01:51,4692,-8600,16840,-3980,-14166,4579,43.26
2023-07-27,12:01:51,524,-2896,17380,5588,7919,-5310,43.17
2023-07-27,12:01:52,3656,-132,18124,-4375,-4639,-646,43.31
2023-07-27,12:01:53,3864,-1860,16788,521,381,-57,43.35
2023-07-27,12:01:53,3816,-2288,16812,-565,509,200,43.12
